{
  "resourceType": "Bundle",
  "id": "tests-denom-EXM105-FHIR4-bundle",
  "type": "transaction",
  "entry": [
    {
      "resource": {
        "resourceType": "Condition",
        "id": "denom-EXM105-FHIR4-1",
        "meta": {
          "profile": [
            "http://hl7.org/fhir/us/core/StructureDefinition/us-core-condition"
          ]
        },
        "category": [
          {
            "coding": [
              {
                "system": "http://terminology.hl7.org/CodeSystem/condition-category",
                "code": "encounter-diagnosis",
                "display": "Encounter Diagnosis"
              }
            ]
          }
        ],
        "code": {
          "coding": [
            {
              "system": "http://snomed.info/sct",
              "code": "116288000",
              "display": "Paralytic stroke (disorder)"
            }
          ]
        },
        "subject": {
          "reference": "Patient/denom-EXM105-FHIR4"
        }
      },
      "request": {
        "method": "PUT",
        "url": "Condition/denom-EXM105-FHIR4-1"
      }
    },
    {
      "resource": {
        "resourceType": "Encounter",
        "id": "denom-EXM105-FHIR4-2",
        "meta": {
          "profile": [
            "http://hl7.org/fhir/us/core/StructureDefinition/us-core-encounter"
          ]
        },
        "status": "finished",
        "class": {
          "system": "http://terminology.hl7.org/CodeSystem/v3-ActCode",
          "code": "IMP",
          "display": "inpatient encounter"
        },
        "type": [
          {
            "coding": [
              {
                "system": "http://snomed.info/sct",
                "code": "32485007",
                "display": "Hospital admission (procedure)"
              }
            ]
          }
        ],
        "subject": {
          "reference": "Patient/denom-EXM105-FHIR4"
        },
        "period": {
          "start": "2019-08-21T00:00:00-06:00",
          "end": "2019-12-19T08:15:00-07:00"
        },
        "diagnosis": [
          {
            "condition": {
              "reference": "Condition/denom-EXM105-FHIR4-1"
            },
            "rank": 1
          }
        ]
      },
      "request": {
        "method": "PUT",
        "url": "Encounter/denom-EXM105-FHIR4-2"
      }
    },
    {
      "resource": {
        "resourceType": "MeasureReport",
        "id": "measurereport-denom-EXM105-FHIR4",
        "status": "complete",
        "type": "individual",
        "period": {
          "start": "2018-12-31T17:00:00-07:00",
          "end": "2019-12-30T17:00:00-07:00"
        },
        "group": [
          {
            "id": "group-1",
            "population": [
              {
                "code": {
                  "coding": [
                    {
                      "system": "http://terminology.hl7.org/CodeSystem/measure-population",
                      "code": "initial-population",
                      "display": "Initial Population"
                    }
                  ]
                },
                "count": 1
              },
              {
                "code": {
                  "coding": [
                    {
                      "system": "http://terminology.hl7.org/CodeSystem/measure-population",
                      "code": "numerator",
                      "display": "Numerator"
                    }
                  ]
                },
                "count": 0
              },
              {
                "code": {
                  "coding": [
                    {
                      "system": "http://terminology.hl7.org/CodeSystem/measure-population",
                      "code": "denominator",
                      "display": "Denominator"
                    }
                  ]
                },
                "count": 1
              },
              {
                "code": {
                  "coding": [
                    {
                      "system": "http://terminology.hl7.org/CodeSystem/measure-population",
                      "code": "denominator-exclusion",
                      "display": "Denominator Exclusion"
                    }
                  ]
                },
                "count": 0
              }
            ]
          }
        ]
      },
      "request": {
        "method": "PUT",
        "url": "MeasureReport/measurereport-denom-EXM105-FHIR4"
      }
    },
    {
      "resource": {
        "resourceType": "Patient",
        "id": "denom-EXM105-FHIR4",
        "meta": {
          "profile": [
            "http://hl7.org/fhir/us/core/StructureDefinition/us-core-patient"
          ]
        },
        "extension": [
          {
            "url": "http://hl7.org/fhir/us/core/StructureDefinition/us-core-race",
            "extension": [
              {
                "url": "ombCategory",
                "valueCoding": {
                  "system": "urn:oid:2.16.840.1.113883.6.238",
                  "code": "2054-5",
                  "display": "Black or African American"
                }
              }
            ]
          },
          {
            "url": "http://hl7.org/fhir/us/core/StructureDefinition/us-core-ethnicity",
            "extension": [
              {
                "url": "ombCategory",
                "valueCoding": {
                  "system": "urn:oid:2.16.840.1.113883.6.238",
                  "code": "2135-2",
                  "display": "Hispanic or Latino"
                }
              }
            ]
          }
        ],
        "identifier": [
          {
            "use": "usual",
            "type": {
              "coding": [
                {
                  "system": "http://terminology.hl7.org/CodeSystem/v2-0203",
                  "code": "MR",
                  "display": "Medical Record Number"
                }
              ]
            },
            "system": "http://hospital.smarthealthit.org",
            "value": "9999999910"
          }
        ],
        "name": [
          {
            "family": "Jones",
            "given": [
              "Rick"
            ]
          }
        ],
        "gender": "male",
        "birthDate": "1955-11-05"
      },
      "request": {
        "method": "PUT",
        "url": "Patient/denom-EXM105-FHIR4"
      }
    }
  ]
}