{
  "resourceType": "Bundle",
  "id": "tests-denom-EXM108-FHIR4-bundle",
  "type": "transaction",
  "entry": [
    {
      "resource": {
        "resourceType": "Condition",
        "id": "denom-EXM108-FHIR4-2",
        "meta": {
          "profile": [
            "http://hl7.org/fhir/us/core/StructureDefinition/us-core-condition"
          ]
        },
        "verificationStatus": {
          "coding": [
            {
              "system": "http://terminology.hl7.org/CodeSystem/condition-ver-status",
              "code": "confirmed",
              "display": "Confirmed"
            }
          ]
        },
        "category": [
          {
            "coding": [
              {
                "system": "http://terminology.hl7.org/CodeSystem/condition-category",
                "code": "encounter-diagnosis",
                "display": "Encounter Diagnosis"
              }
            ]
          }
        ],
        "code": {
          "coding": [
            {
              "system": "http://snomed.info/sct",
              "code": "10327003",
              "display": "Cocaine-induced mood disorder (disorder)"
            }
          ]
        },
        "subject": {
          "reference": "Patient/denom-EXM108-FHIR4"
        }
      },
      "request": {
        "method": "PUT",
        "url": "Condition/denom-EXM108-FHIR4-2"
      }
    },
    {
      "resource": {
        "resourceType": "Encounter",
        "id": "denom-EXM108-FHIR4-1",
        "meta": {
          "profile": [
            "http://hl7.org/fhir/us/core/StructureDefinition/us-core-encounter"
          ]
        },
        "status": "finished",
        "class": {
          "system": "http://terminology.hl7.org/CodeSystem/v3-ActCode",
          "code": "IMP",
          "display": "inpatient encounter"
        },
        "type": [
          {
            "coding": [
              {
                "system": "http://snomed.info/sct",
                "code": "32485007",
                "display": "Hospital admission (procedure)"
              }
            ]
          }
        ],
        "subject": {
          "reference": "Patient/denom-EXM108-FHIR4"
        },
        "period": {
          "start": "2019-01-16T08:30:00-07:00",
          "end": "2019-01-20T08:30:00-07:00"
        },
        "diagnosis": [
          {
            "condition": {
              "reference": "Condition/denom-EXM108-FHIR4-2"
            }
          }
        ],
        "hospitalization": {
          "dischargeDisposition": {
            "coding": [
              {
                "system": "http://snomed.info/sct",
                "code": "306701001",
                "display": "Discharge to community hospital (procedure)"
              }
            ]
          }
        }
      },
      "request": {
        "method": "PUT",
        "url": "Encounter/denom-EXM108-FHIR4-1"
      }
    },
    {
      "resource": {
        "resourceType": "MeasureReport",
        "id": "measurereport-denom-EXM108-FHIR4",
        "contained": [
          {
            "resourceType": "Bundle",
            "id": "5d5fdfa8-c1b9-4b1b-8f98-cda1aec4d495",
            "type": "collection",
            "entry": [
              {
                "fullUrl": "cc921108-5e8e-4293-9259-da5b4431f1b7",
                "resource": {
                  "resourceType": "List",
                  "id": "cc921108-5e8e-4293-9259-da5b4431f1b7",
                  "title": "numerator",
                  "entry": [
                    {
                      "item": {
                        "reference": "denom-EXM108-FHIR4-1"
                      }
                    },
                    {
                      "item": {
                        "reference": "denom-EXM108-FHIR4-5"
                      }
                    },
                    {
                      "item": {
                        "reference": "denom-EXM108-FHIR4"
                      }
                    },
                    {
                      "item": {
                        "reference": "denom-EXM108-FHIR4-2"
                      }
                    },
                    {
                      "item": {
                        "reference": "denom-EXM108-FHIR4-4"
                      }
                    }
                  ]
                }
              },
              {
                "fullUrl": "Encounter/denom-EXM108-FHIR4-1",
                "resource": {
                  "resourceType": "Encounter",
                  "id": "denom-EXM108-FHIR4-1",
                  "meta": {
                    "versionId": "1",
                    "lastUpdated": "2020-01-29T16:25:14.461-07:00",
                    "profile": [
                      "http://hl7.org/fhir/us/core/StructureDefinition/us-core-encounter"
                    ]
                  },
                  "status": "finished",
                  "class": {
                    "system": "http://terminology.hl7.org/CodeSystem/v3-ActCode",
                    "code": "IMP",
                    "display": "inpatient encounter"
                  },
                  "type": [
                    {
                      "coding": [
                        {
                          "system": "http://snomed.info/sct",
                          "code": "32485007",
                          "display": "Hospital admission (procedure)"
                        }
                      ]
                    }
                  ],
                  "subject": {
                    "reference": "Patient/denom-EXM108-FHIR4"
                  },
                  "period": {
                    "start": "2019-01-16T08:30:00-07:00",
                    "end": "2019-01-20T08:30:00-07:00"
                  },
                  "diagnosis": [
                    {
                      "condition": {
                        "reference": "Condition/denom-EXM108-FHIR4-2"
                      }
                    }
                  ],
                  "hospitalization": {
                    "dischargeDisposition": {
                      "coding": [
                        {
                          "system": "http://snomed.info/sct",
                          "code": "306701001",
                          "display": "Discharge to community hospital (procedure)"
                        }
                      ]
                    }
                  }
                }
              },
              {
                "fullUrl": "MedicationAdministration/denom-EXM108-FHIR4-5",
                "resource": {
                  "resourceType": "MedicationAdministration",
                  "id": "denom-EXM108-FHIR4-5",
                  "meta": {
                    "versionId": "1",
                    "lastUpdated": "2020-01-29T16:25:14.461-07:00"
                  },
                  "status": "completed",
                  "medicationCodeableConcept": {
                    "coding": [
                      {
                        "system": "http://www.nlm.nih.gov/research/umls/rxnorm",
                        "code": "854228",
                        "display": "0.3 ML Enoxaparin sodium 100 MG/ML Prefilled Syringe"
                      }
                    ]
                  },
                  "subject": {
                    "reference": "Patient/denom-EXM108-FHIR4"
                  },
                  "effectivePeriod": {
                    "start": "2019-01-19T12:30:00-07:00",
                    "end": "2019-01-19T13:00:00-07:00"
                  }
                }
              },
              {
                "fullUrl": "Patient/denom-EXM108-FHIR4",
                "resource": {
                  "resourceType": "Patient",
                  "id": "denom-EXM108-FHIR4",
                  "meta": {
                    "versionId": "1",
                    "lastUpdated": "2020-01-29T16:25:14.461-07:00",
                    "profile": [
                      "http://hl7.org/fhir/us/core/StructureDefinition/us-core-patient"
                    ]
                  },
                  "text": {
                    "status": "generated",
                    "div": "<div xmlns=\"http://www.w3.org/1999/xhtml\"><div class=\"hapiHeaderText\">Frank <b>JONES </b></div><table class=\"hapiPropertyTable\"><tbody><tr><td>Identifier</td><td>999999996</td></tr><tr><td>Date of birth</td><td><span>01 May 1951</span></td></tr></tbody></table></div>"
                  },
                  "extension": [
                    {
                      "url": "http://hl7.org/fhir/us/core/StructureDefinition/us-core-race",
                      "extension": [
                        {
                          "url": "ombCategory",
                          "valueCoding": {
                            "system": "urn:oid:2.16.840.1.113883.6.238",
                            "code": "2106-3",
                            "display": "White"
                          }
                        }
                      ]
                    },
                    {
                      "url": "http://hl7.org/fhir/us/core/StructureDefinition/us-core-ethnicity",
                      "extension": [
                        {
                          "url": "ombCategory",
                          "valueCoding": {
                            "system": "urn:oid:2.16.840.1.113883.6.238",
                            "code": "2186-5",
                            "display": "Not Hispanic or Latino"
                          }
                        }
                      ]
                    }
                  ],
                  "identifier": [
                    {
                      "use": "usual",
                      "type": {
                        "coding": [
                          {
                            "system": "http://terminology.hl7.org/CodeSystem/v2-0203",
                            "code": "MR",
                            "display": "Medical Record Number"
                          }
                        ]
                      },
                      "system": "http://hospital.smarthealthit.org",
                      "value": "999999996"
                    }
                  ],
                  "name": [
                    {
                      "family": "Jones",
                      "given": [
                        "Frank"
                      ]
                    }
                  ],
                  "gender": "male",
                  "birthDate": "1951-05-01"
                }
              },
              {
                "fullUrl": "71b33f66-73d1-402c-bf4f-69b1aac201f6",
                "resource": {
                  "resourceType": "List",
                  "id": "71b33f66-73d1-402c-bf4f-69b1aac201f6",
                  "title": "denominator",
                  "entry": [
                    {
                      "item": {
                        "reference": "denom-EXM108-FHIR4-1"
                      }
                    },
                    {
                      "item": {
                        "reference": "denom-EXM108-FHIR4"
                      }
                    },
                    {
                      "item": {
                        "reference": "denom-EXM108-FHIR4-2"
                      }
                    },
                    {
                      "item": {
                        "reference": "denom-EXM108-FHIR4-4"
                      }
                    }
                  ]
                }
              },
              {
                "fullUrl": "Condition/denom-EXM108-FHIR4-2",
                "resource": {
                  "resourceType": "Condition",
                  "id": "denom-EXM108-FHIR4-2",
                  "meta": {
                    "versionId": "1",
                    "lastUpdated": "2020-01-29T16:25:14.461-07:00",
                    "profile": [
                      "http://hl7.org/fhir/us/core/StructureDefinition/us-core-condition"
                    ]
                  },
                  "verificationStatus": {
                    "coding": [
                      {
                        "system": "http://terminology.hl7.org/CodeSystem/condition-ver-status",
                        "code": "confirmed",
                        "display": "Confirmed"
                      }
                    ]
                  },
                  "category": [
                    {
                      "coding": [
                        {
                          "system": "http://terminology.hl7.org/CodeSystem/condition-category",
                          "code": "encounter-diagnosis",
                          "display": "Encounter Diagnosis"
                        }
                      ]
                    }
                  ],
                  "code": {
                    "coding": [
                      {
                        "system": "http://snomed.info/sct",
                        "code": "10327003",
                        "display": "Cocaine-induced mood disorder (disorder)"
                      }
                    ]
                  },
                  "subject": {
                    "reference": "Patient/denom-EXM108-FHIR4"
                  }
                }
              },
              {
                "fullUrl": "2d783708-7a8d-493e-90b7-700700cd16cb",
                "resource": {
                  "resourceType": "List",
                  "id": "2d783708-7a8d-493e-90b7-700700cd16cb",
                  "title": "initial-population",
                  "entry": [
                    {
                      "item": {
                        "reference": "denom-EXM108-FHIR4-1"
                      }
                    },
                    {
                      "item": {
                        "reference": "denom-EXM108-FHIR4"
                      }
                    },
                    {
                      "item": {
                        "reference": "denom-EXM108-FHIR4-2"
                      }
                    }
                  ]
                }
              },
              {
                "fullUrl": "Procedure/denom-EXM108-FHIR4-4",
                "resource": {
                  "resourceType": "Procedure",
                  "id": "denom-EXM108-FHIR4-4",
                  "meta": {
                    "versionId": "1",
                    "lastUpdated": "2020-01-29T16:25:14.461-07:00",
                    "profile": [
                      "http://hl7.org/fhir/us/core/StructureDefinition/us-core-procedure"
                    ]
                  },
                  "status": "completed",
                  "code": {
                    "coding": [
                      {
                        "system": "http://snomed.info/sct",
                        "code": "112943005",
                        "display": "Epidural injection of anesthetic substance"
                      }
                    ]
                  },
                  "subject": {
                    "reference": "Patient/denom-EXM108-FHIR4"
                  },
                  "performedPeriod": {
                    "start": "2019-01-17T08:30:00-07:00",
                    "end": "2019-01-17T10:30:00-07:00"
                  }
                }
              }
            ]
          }
        ],
        "status": "complete",
        "type": "individual",
        "measure": "Measure/measure-EXM108-FHIR4-8.2.000",
        "subject": {
          "reference": "Patient/denom-EXM108-FHIR4"
        },
        "period": {
          "start": "2018-12-31T17:00:00-07:00",
          "end": "2019-12-30T17:00:00-07:00"
        },
        "group": [
          {
            "id": "group-1",
            "population": [
              {
                "code": {
                  "coding": [
                    {
                      "system": "http://terminology.hl7.org/CodeSystem/measure-population",
                      "code": "initial-population",
                      "display": "Initial Population"
                    }
                  ]
                },
                "count": 1
              },
              {
                "code": {
                  "coding": [
                    {
                      "system": "http://terminology.hl7.org/CodeSystem/measure-population",
                      "code": "numerator",
                      "display": "Numerator"
                    }
                  ]
                },
                "count": 0
              },
              {
                "code": {
                  "coding": [
                    {
                      "system": "http://terminology.hl7.org/CodeSystem/measure-population",
                      "code": "denominator",
                      "display": "Denominator"
                    }
                  ]
                },
                "count": 1
              },
              {
                "code": {
                  "coding": [
                    {
                      "system": "http://terminology.hl7.org/CodeSystem/measure-population",
                      "code": "denominator-exclusion",
                      "display": "Denominator Exclusion"
                    }
                  ]
                },
                "count": 0
              }
            ],
            "measureScore": {
              "value": 0.0
            }
          }
        ],
        "evaluatedResource": [
          {
            "reference": "#5d5fdfa8-c1b9-4b1b-8f98-cda1aec4d495"
          }
        ]
      },
      "request": {
        "method": "PUT",
        "url": "MeasureReport/measurereport-denom-EXM108-FHIR4"
      }
    },
    {
      "resource": {
        "resourceType": "MedicationAdministration",
        "id": "denom-EXM108-FHIR4-5",
        "status": "completed",
        "medicationCodeableConcept": {
          "coding": [
            {
              "system": "http://www.nlm.nih.gov/research/umls/rxnorm",
              "code": "854228",
              "display": "0.3 ML Enoxaparin sodium 100 MG/ML Prefilled Syringe"
            }
          ]
        },
        "subject": {
          "reference": "Patient/denom-EXM108-FHIR4"
        },
        "effectivePeriod": {
          "start": "2019-01-19T12:30:00-07:00",
          "end": "2019-01-19T13:00:00-07:00"
        }
      },
      "request": {
        "method": "PUT",
        "url": "MedicationAdministration/denom-EXM108-FHIR4-5"
      }
    },
    {
      "resource": {
        "resourceType": "Patient",
        "id": "denom-EXM108-FHIR4",
        "meta": {
          "profile": [
            "http://hl7.org/fhir/us/core/StructureDefinition/us-core-patient"
          ]
        },
        "extension": [
          {
            "url": "http://hl7.org/fhir/us/core/StructureDefinition/us-core-race",
            "extension": [
              {
                "url": "ombCategory",
                "valueCoding": {
                  "system": "urn:oid:2.16.840.1.113883.6.238",
                  "code": "2106-3",
                  "display": "White"
                }
              }
            ]
          },
          {
            "url": "http://hl7.org/fhir/us/core/StructureDefinition/us-core-ethnicity",
            "extension": [
              {
                "url": "ombCategory",
                "valueCoding": {
                  "system": "urn:oid:2.16.840.1.113883.6.238",
                  "code": "2186-5",
                  "display": "Not Hispanic or Latino"
                }
              }
            ]
          }
        ],
        "identifier": [
          {
            "use": "usual",
            "type": {
              "coding": [
                {
                  "system": "http://terminology.hl7.org/CodeSystem/v2-0203",
                  "code": "MR",
                  "display": "Medical Record Number"
                }
              ]
            },
            "system": "http://hospital.smarthealthit.org",
            "value": "999999996"
          }
        ],
        "name": [
          {
            "family": "Jones",
            "given": [
              "Frank"
            ]
          }
        ],
        "gender": "male",
        "birthDate": "1951-05-01"
      },
      "request": {
        "method": "PUT",
        "url": "Patient/denom-EXM108-FHIR4"
      }
    },
    {
      "resource": {
        "resourceType": "Procedure",
        "id": "denom-EXM108-FHIR4-4",
        "meta": {
          "profile": [
            "http://hl7.org/fhir/us/core/StructureDefinition/us-core-procedure"
          ]
        },
        "status": "completed",
        "code": {
          "coding": [
            {
              "system": "http://snomed.info/sct",
              "code": "112943005",
              "display": "Epidural injection of anesthetic substance"
            }
          ]
        },
        "subject": {
          "reference": "Patient/denom-EXM108-FHIR4"
        },
        "performedPeriod": {
          "start": "2019-01-17T08:30:00-07:00",
          "end": "2019-01-17T10:30:00-07:00"
        }
      },
      "request": {
        "method": "PUT",
        "url": "Procedure/denom-EXM108-FHIR4-4"
      }
    }
  ]
}